IESNA:LM-63-2002
[TEST] 1
[TESTLAB] AOK
[TESTDATE] 2019-06-19
[ISSUEDATE] 2019-06-20 14:35:27
[NEARFIELD] 
[LAMPPOSITION] 0,0
[OTHER] EVERFINE GO-2000A_V1 SYSTEM
[MANUFAC] AOK
[LUMCAT] A
[LUMINAIRE] AOK-150WIP-NV-L3-00-5070-T401-P
[LAMPCAT] B
[LAMP] 3030
[BALLAST] E
[BALLASTCAT] F
[OTHER] 
[OTHER] Gamma(deg)    Fz(lm)      Ft(lm)     %Lum    %Lamp
[OTHER]   0- 10       431.71      431.71     2.61     2.61
[OTHER]  10- 20      1228.81     1660.52    10.03    10.03
[OTHER]  20- 30      1890.95     3551.48    21.44    21.44
[OTHER]  30- 40      2461.50     6012.98    36.31    36.31
[OTHER]  40- 50      2920.32     8933.30    53.94    53.94
[OTHER]  50- 60      3324.17    12257.47    74.01    74.01
[OTHER]  60- 70      3068.88    15326.35    92.54    92.54
[OTHER]  70- 80      1114.08    16440.43    99.27    99.27
[OTHER]  80- 90        70.26    16510.69    99.69    99.69
[OTHER]  90-100         4.05    16514.74    99.72    99.72
[OTHER] 100-110         5.40    16520.14    99.75    99.75
[OTHER] 110-120         7.69    16527.84    99.80    99.80
[OTHER] 120-130         8.53    16536.37    99.85    99.85
[OTHER] 130-140         8.08    16544.45    99.90    99.90
[OTHER] 140-150         6.89    16551.34    99.94    99.94
[OTHER] 150-160         5.43    16556.77    99.97    99.97
[OTHER] 160-170         3.56    16560.33    99.99    99.99
[OTHER] 170-180         1.25    16561.58   100.00   100.00
[OTHER] 
TILT=NONE
1 16562 1 181 25 1 2 -0.409 -0.409 0.000
1.000 1 149.828
0.0    1.0    2.0    3.0    4.0    5.0    6.0    7.0    8.0    9.0    
 10.0   11.0   12.0   13.0   14.0   15.0   16.0   17.0   18.0   19.0   
 20.0   21.0   22.0   23.0   24.0   25.0   26.0   27.0   28.0   29.0   
 30.0   31.0   32.0   33.0   34.0   35.0   36.0   37.0   38.0   39.0   
 40.0   41.0   42.0   43.0   44.0   45.0   46.0   47.0   48.0   49.0   
 50.0   51.0   52.0   53.0   54.0   55.0   56.0   57.0   58.0   59.0   
 60.0   61.0   62.0   63.0   64.0   65.0   66.0   67.0   68.0   69.0   
 70.0   71.0   72.0   73.0   74.0   75.0   76.0   77.0   78.0   79.0   
 80.0   81.0   82.0   83.0   84.0   85.0   86.0   87.0   88.0   89.0   
 90.0   91.0   92.0   93.0   94.0   95.0   96.0   97.0   98.0   99.0   
 100.0  101.0  102.0  103.0  104.0  105.0  106.0  107.0  108.0  109.0  
 110.0  111.0  112.0  113.0  114.0  115.0  116.0  117.0  118.0  119.0  
 120.0  121.0  122.0  123.0  124.0  125.0  126.0  127.0  128.0  129.0  
 130.0  131.0  132.0  133.0  134.0  135.0  136.0  137.0  138.0  139.0  
 140.0  141.0  142.0  143.0  144.0  145.0  146.0  147.0  148.0  149.0  
 150.0  151.0  152.0  153.0  154.0  155.0  156.0  157.0  158.0  159.0  
 160.0  161.0  162.0  163.0  164.0  165.0  166.0  167.0  168.0  169.0  
 170.0  171.0  172.0  173.0  174.0  175.0  176.0  177.0  178.0  179.0  
 180.0  
0.0    15.0   30.0   45.0   60.0   75.0   90.0   105.0  120.0  135.0  
 150.0  165.0  180.0  195.0  210.0  225.0  240.0  255.0  270.0  285.0  
 300.0  315.0  330.0  345.0  360.0  
4569.17  4650.04  4727.69  4798.07  4866.76  4932.44  4993.85  5052.81  5109.72  5161.79  
 5208.99  5251.31  5290.35  5326.55  5358.70  5386.78  5410.33  5429.88  5445.37  5456.80  
 5464.97  5468.68  5468.32  5464.70  5459.83  5454.96  5452.49  5453.27  5456.49  5460.54  
 5463.00  5462.63  5460.21  5456.97  5451.71  5446.83  5442.36  5440.70  5442.29  5449.13  
 5460.05  5474.24  5492.07  5514.37  5539.93  5571.56  5609.69  5649.49  5690.93  5735.19  
 5784.58  5831.34  5876.47  5913.15  5942.49  5962.51  5963.14  5937.42  5884.48  5799.89  
 5685.60  5530.80  5318.99  5015.35  4626.28  4147.02  3577.54  2894.51  2171.22  1513.00  
 1198.48  887.63   576.79   490.78   438.68   391.46   341.58   290.66   248.56   210.28   
 175.42   144.53   119.50   94.53    69.56    53.38    40.47    29.35    20.50    13.34    
 5.64     1.98     1.73     1.65     1.63     1.62     1.71     1.81     1.86     1.91     
 1.98     2.05     2.13     2.20     2.26     2.32     2.39     2.46     2.54     2.61     
 2.69     2.77     2.84     2.92     2.99     3.06     3.14     3.20     3.27     3.34     
 3.41     3.47     3.53     3.60     3.67     3.73     3.79     3.86     3.92     3.99     
 4.06     4.13     4.20     4.27     4.35     4.42     4.51     4.59     4.68     4.78     
 4.87     4.98     5.09     5.21     5.35     5.48     5.62     5.78     5.92     6.09     
 6.26     6.43     6.65     7.04     7.24     7.43     7.64     7.86     8.08     8.32     
 8.56     8.80     9.04     9.27     9.51     9.74     9.97     10.20    10.43    10.67    
 10.91    11.13    11.35    11.55    11.72    11.89    12.07    12.23    12.42    12.60    
 12.94    
4569.17  4650.03  4727.19  4803.06  4874.41  4945.31  5011.24  5073.85  5133.42  5191.88  
 5245.76  5293.86  5339.06  5381.34  5419.89  5454.71  5486.61  5514.36  5537.56  5556.97  
 5572.29  5583.04  5590.06  5592.94  5592.92  5590.44  5588.38  5587.99  5590.50  5595.09  
 5602.12  5608.73  5612.04  5614.52  5616.17  5616.16  5615.33  5614.93  5615.76  5616.63  
 5621.63  5628.68  5638.67  5652.40  5671.08  5692.26  5715.94  5742.95  5774.92  5809.77  
 5845.48  5884.07  5924.28  5961.08  5994.23  6023.65  6048.06  6064.51  6063.09  6042.06  
 5989.04  5899.04  5767.06  5586.39  5342.13  5020.47  4624.87  4144.66  3586.02  2899.82  
 2214.04  1576.92  1074.77  774.88   589.69   476.18   402.85   347.07   298.17   256.12   
 214.12   177.34   145.12   116.71   91.71    70.35    53.44    39.20    27.95    19.06    
 11.86    4.26     2.66     2.03     1.71     1.55     1.49     1.49     1.51     1.57     
 1.64     1.71     1.78     1.86     1.94     2.04     2.18     2.29     2.38     2.45     
 2.53     2.62     2.72     2.79     2.86     2.93     3.01     3.09     3.16     3.24     
 3.31     3.39     3.47     3.54     3.60     3.67     3.74     3.82     3.89     3.96     
 4.04     4.12     4.19     4.27     4.35     4.43     4.52     4.61     4.70     4.80     
 4.91     5.02     5.14     5.27     5.41     5.57     5.70     5.87     6.03     6.21     
 6.38     6.56     6.75     7.19     7.37     7.58     7.78     7.99     8.21     8.44     
 8.66     8.88     9.10     9.31     9.52     9.74     9.93     10.15    10.37    10.59    
 10.81    11.03    11.22    11.40    11.56    11.71    11.84    11.98    12.15    12.31    
 12.94    
4569.17  4643.71  4715.71  4785.61  4855.89  4922.67  4985.44  5046.08  5106.69  5165.22  
 5219.98  5273.45  5323.16  5370.33  5414.14  5455.42  5491.57  5525.27  5556.87  5585.11  
 5608.74  5629.81  5647.95  5662.30  5672.86  5679.64  5684.71  5687.67  5688.95  5690.21  
 5693.55  5697.75  5703.63  5707.02  5710.39  5712.51  5712.53  5711.28  5710.44  5710.84  
 5714.59  5720.87  5727.60  5735.58  5744.00  5754.08  5764.60  5774.71  5786.89  5804.10  
 5825.88  5853.17  5885.93  5921.67  5959.12  5996.16  6034.03  6067.75  6096.85  6122.56  
 6135.32  6126.31  6087.95  6012.64  5905.69  5759.68  5560.36  5301.75  4998.76  4639.08  
 4246.29  3807.34  3330.45  2799.10  2235.47  1719.68  1276.43  957.72   640.46   451.71   
 314.79   224.84   164.22   134.06   104.21   74.36    54.47    38.98    28.09    20.35    
 14.23    6.63     4.41     2.78     2.07     1.81     1.65     1.52     1.48     1.49     
 1.54     1.61     1.68     1.75     1.83     1.90     1.98     2.05     2.13     2.21     
 2.30     2.39     2.51     2.65     2.77     2.87     2.96     3.05     3.15     3.24     
 3.34     3.43     3.53     3.62     3.73     3.81     3.91     4.01     4.11     4.21     
 4.32     4.43     4.54     4.66     4.79     4.91     5.03     5.17     5.30     5.44     
 5.57     5.71     5.86     6.02     6.18     6.34     6.50     6.67     6.83     7.00     
 7.17     7.34     7.61     8.06     8.25     8.43     8.63     8.81     9.02     9.21     
 9.40     9.60     9.79     9.98     10.17    10.36    10.55    10.76    10.96    11.17    
 11.38    11.57    11.74    11.91    12.05    12.18    12.31    12.46    12.65    12.84    
 12.94    
4569.17  4631.48  4689.59  4747.69  4804.54  4863.06  4919.87  4974.56  5027.02  5080.03  
 5132.18  5181.36  5228.86  5275.51  5321.30  5364.96  5405.65  5442.96  5478.97  5511.11  
 5541.62  5569.16  5592.91  5615.37  5635.72  5655.20  5671.75  5688.70  5703.94  5716.23  
 5727.64  5737.38  5744.57  5749.24  5755.18  5760.27  5765.80  5773.00  5779.79  5786.12  
 5789.90  5789.46  5786.04  5780.09  5772.48  5767.85  5767.46  5770.89  5778.12  5787.45  
 5796.84  5812.61  5836.00  5866.48  5899.12  5929.15  5948.59  5959.55  5963.31  5959.51  
 5958.15  5947.56  5937.98  5946.46  5954.80  5947.02  5919.20  5860.22  5746.20  5590.55  
 5386.80  5116.51  4788.21  4413.91  3974.11  3452.90  2919.16  2385.42  1853.69  1342.78  
 838.51   485.33   316.93   149.53   89.64    58.02    39.99    29.03    21.33    16.28    
 10.73    6.76     4.92     3.50     2.65     2.18     1.82     1.47     1.36     1.41     
 1.46     1.53     1.59     1.66     1.74     1.82     1.90     1.98     2.08     2.17     
 2.26     2.37     2.48     2.59     2.69     2.81     2.94     3.07     3.20     3.35     
 3.50     3.65     3.77     3.90     4.03     4.16     4.30     4.46     4.61     4.76     
 4.93     5.08     5.24     5.41     5.58     5.74     5.89     6.05     6.20     6.33     
 6.47     6.62     6.76     6.91     7.07     7.23     7.39     7.61     7.76     7.90     
 8.05     8.22     8.46     8.93     9.07     9.21     9.37     9.53     9.70     9.87     
 10.03    10.19    10.37    10.56    10.75    10.94    11.12    11.30    11.47    11.68    
 11.88    12.06    12.23    12.40    12.55    12.68    12.81    12.95    13.13    13.29    
 12.94    
4569.17  4612.11  4652.95  4693.34  4734.14  4774.42  4816.49  4858.15  4898.97  4940.62  
 4982.28  5022.68  5062.23  5100.92  5140.87  5179.99  5216.47  5250.51  5285.36  5318.54  
 5350.44  5382.74  5413.37  5442.30  5469.52  5495.89  5520.98  5545.58  5567.71  5590.66  
 5611.51  5632.76  5653.18  5671.90  5684.30  5691.59  5693.34  5695.47  5702.62  5711.53  
 5722.13  5733.18  5745.91  5758.67  5773.10  5791.76  5812.57  5836.34  5863.09  5891.56  
 5920.38  5950.13  5975.26  5997.41  6015.31  6023.50  6028.64  6047.19  6040.66  6009.47  
 6023.87  6045.00  6065.42  6066.93  6009.83  5907.90  5780.66  5619.09  5420.97  5206.04  
 4931.21  4500.51  4000.10  3366.68  2715.61  2113.48  1535.90  1163.65  793.83   424.00   
 262.07   157.89   112.30   67.32    49.89    38.67    29.78    21.91    15.78    10.36    
 6.58     5.15     4.43     3.86     2.99     2.20     1.56     1.42     1.51     1.63     
 1.76     1.90     2.03     2.18     2.34     2.50     2.66     2.83     3.00     3.18     
 3.36     3.54     3.71     3.90     4.08     4.25     4.44     4.61     4.78     4.95     
 5.12     5.28     5.44     5.60     5.75     5.89     6.03     6.17     6.32     6.45     
 6.59     6.72     6.86     7.00     7.13     7.26     7.38     7.50     7.62     7.72     
 7.83     7.93     8.03     8.16     8.27     8.39     8.51     8.62     8.72     8.84     
 8.96     9.14     9.49     9.89     9.99     10.10    10.21    10.35    10.49    10.64    
 10.79    10.95    11.11    11.27    11.44    11.60    11.76    11.91    12.06    12.21    
 12.33    12.48    12.63    12.74    12.83    12.89    12.96    13.05    13.16    13.28    
 12.94    
4569.17  4590.52  4609.75  4628.56  4647.80  4668.32  4689.26  4710.22  4731.97  4756.34  
 4781.12  4805.06  4829.86  4855.95  4883.70  4908.93  4935.85  4961.50  4988.41  5013.56  
 5038.35  5063.57  5089.21  5115.28  5140.49  5165.29  5191.37  5218.30  5245.23  5272.59  
 5301.13  5327.61  5350.64  5368.54  5379.17  5383.42  5384.69  5384.73  5389.93  5402.80  
 5420.37  5442.54  5466.50  5493.90  5527.28  5565.34  5605.96  5649.12  5690.94  5726.39  
 5759.36  5798.71  5840.98  5878.49  5916.33  5928.23  5932.59  5946.76  5969.29  5977.68  
 5967.85  5911.69  5791.45  5656.63  5502.02  5305.07  5062.06  4787.36  4473.14  4097.35  
 3609.71  3075.88  2542.05  2008.93  1549.77  1139.68  799.68   551.34   420.56   289.78   
 159.68   109.48   79.41    61.69    49.87    41.17    33.26    26.25    19.56    12.93    
 9.75     7.68     6.28     4.68     3.18     2.25     2.25     2.46     2.70     2.94     
 3.19     3.45     3.70     3.96     4.24     4.51     4.78     5.06     5.33     5.57     
 5.81     6.03     6.26     6.48     6.68     6.89     7.09     7.28     7.45     7.62     
 7.77     7.92     8.05     8.17     8.29     8.40     8.50     8.61     8.72     8.84     
 8.94     9.05     9.16     9.28     9.41     9.54     9.63     9.70     9.77     9.85     
 9.89     9.95     10.02    10.10    10.15    10.23    10.31    10.40    10.45    10.53    
 10.61    10.75    11.07    11.70    11.75    11.79    11.84    11.88    11.95    12.03    
 12.12    12.20    12.29    12.38    12.48    12.59    12.69    12.79    12.89    12.99    
 13.08    13.11    13.16    13.21    13.24    13.24    13.25    13.28    13.34    13.41    
 12.94    
4569.17  4568.36  4566.75  4565.54  4563.95  4563.15  4562.75  4562.35  4562.77  4564.78  
 4567.20  4569.61  4572.85  4578.07  4582.49  4586.91  4592.15  4598.17  4604.20  4610.21  
 4616.26  4623.89  4631.93  4640.37  4648.82  4658.06  4667.32  4678.18  4690.23  4702.27  
 4713.08  4723.11  4731.09  4733.84  4731.38  4724.12  4714.51  4708.16  4708.23  4714.33  
 4726.02  4740.88  4759.39  4780.71  4803.61  4826.82  4841.14  4843.21  4850.65  4875.60  
 4904.05  4926.13  4946.17  4962.33  4952.60  4935.02  4926.65  4923.84  4920.62  4881.33  
 4780.89  4647.54  4517.94  4369.50  4175.09  3933.69  3660.14  3354.80  3014.33  2659.98  
 2305.27  1920.86  1574.78  1230.32  924.58   667.58   443.81   343.93   244.05   144.80   
 102.17   75.17    57.73    47.15    39.25    32.29    25.07    18.65    13.17    9.68     
 8.33     7.13     5.21     3.06     2.33     2.53     2.85     3.14     3.45     3.76     
 4.09     4.54     4.96     5.33     5.68     5.99     6.26     6.56     6.85     7.16     
 7.48     7.80     8.12     8.43     8.70     8.99     9.28     9.54     9.77     9.99     
 10.18    10.40    10.60    10.76    10.89    11.03    11.16    11.26    11.37    11.51    
 11.62    11.69    11.76    11.82    11.86    11.89    11.94    11.97    12.00    12.05    
 12.08    12.11    12.14    12.20    12.24    12.27    12.28    12.28    12.28    12.29    
 12.29    12.29    12.31    12.33    12.38    12.40    12.34    12.38    12.44    12.51    
 12.56    12.61    12.66    12.71    12.76    12.82    12.88    12.94    13.00    13.06    
 13.12    13.12    13.16    13.17    13.17    13.18    13.18    13.18    13.18    13.19    
 12.94    
4569.17  4547.06  4524.94  4502.82  4480.30  4456.65  4433.72  4410.79  4389.47  4368.15  
 4346.44  4325.12  4304.21  4282.50  4261.58  4240.66  4220.61  4202.09  4182.80  4163.89  
 4144.59  4126.48  4109.58  4093.09  4075.80  4060.11  4044.42  4028.38  4012.30  3995.81  
 3979.72  3963.64  3945.16  3923.07  3900.16  3880.42  3862.31  3845.81  3829.37  3812.08  
 3796.78  3782.70  3768.62  3754.55  3739.27  3723.19  3703.92  3680.62  3645.33  3615.13  
 3586.24  3549.72  3509.54  3477.69  3441.94  3390.60  3333.94  3273.64  3206.94  3133.00  
 3041.84  2920.14  2795.50  2676.81  2533.47  2334.51  2131.05  1913.61  1661.74  1412.78  
 1178.21  971.92   765.84   579.07   431.01   316.78   233.41   173.02   131.51   105.98   
 80.59    63.58    50.60    41.35    34.51    27.97    21.83    16.53    11.65    9.23     
 7.89     6.32     5.02     4.19     3.62     3.68     4.02     4.36     4.71     5.10     
 5.54     6.00     6.45     6.87     7.28     7.71     8.12     8.50     8.89     9.29     
 9.62     9.99     10.33    10.64    10.96    11.25    11.52    11.77    12.04    12.26    
 12.44    12.60    12.79    12.93    13.04    13.15    13.23    13.29    13.31    13.34    
 13.38    13.42    13.42    13.42    13.41    13.41    13.41    13.41    13.41    13.41    
 13.40    13.39    13.39    13.36    13.35    13.33    13.30    13.28    13.28    13.29    
 13.29    13.28    13.27    13.27    13.27    13.27    13.27    13.27    13.27    13.27    
 13.26    13.26    13.25    13.25    13.24    13.24    13.21    13.19    13.16    13.15    
 13.15    13.12    13.12    13.09    13.05    12.97    12.90    12.83    12.77    12.73    
 12.94    
4569.17  4528.55  4488.30  4444.45  4399.81  4355.18  4311.31  4265.46  4219.32  4171.86  
 4124.00  4076.12  4026.23  3974.34  3921.25  3868.16  3815.06  3760.78  3707.68  3653.12  
 3597.21  3541.32  3486.61  3429.88  3371.60  3316.10  3260.56  3202.22  3141.91  3082.80  
 3024.26  2967.13  2908.02  2849.67  2788.93  2726.58  2663.44  2600.27  2537.13  2475.58  
 2409.48  2341.15  2275.35  2211.35  2147.02  2083.20  2019.66  1954.35  1884.40  1812.47  
 1736.12  1652.24  1560.75  1469.44  1374.89  1278.50  1180.80  1082.12  979.90   882.41   
 793.67   717.73   656.71   608.89   570.35   537.53   504.74   471.41   438.49   405.05   
 369.87   336.71   304.80   272.31   239.30   206.31   176.48   150.37   127.19   105.23   
 85.13    68.43    55.60    44.73    36.36    29.73    24.36    19.36    13.96    9.88     
 7.69     5.88     5.12     4.93     4.66     4.36     4.53     4.90     5.30     5.71     
 6.12     6.54     7.00     7.41     7.81     8.21     8.57     8.94     9.33     9.72     
 10.11    10.51    10.90    11.23    11.58    11.96    12.25    12.53    12.82    13.10    
 13.30    13.46    13.60    13.73    13.83    13.94    14.02    14.11    14.18    14.22    
 14.23    14.24    14.25    14.26    14.25    14.24    14.23    14.22    14.19    14.17    
 14.16    14.15    14.15    14.15    14.13    14.09    14.05    14.02    14.00    13.98    
 13.98    13.98    13.98    13.98    13.98    13.99    13.99    13.99    13.99    14.00    
 14.00    14.00    14.00    14.01    14.01    14.01    14.01    14.01    14.00    13.98    
 13.94    13.89    13.84    13.79    13.73    13.65    13.59    13.51    13.44    13.36    
 12.94    
4569.17  4511.91  4452.66  4392.58  4329.70  4264.17  4196.45  4127.51  4057.36  3984.00  
 3908.61  3832.01  3752.59  3669.96  3581.69  3492.99  3404.12  3314.61  3222.69  3125.96  
 3028.79  2935.21  2842.06  2746.51  2648.15  2549.76  2452.17  2354.45  2254.87  2157.67  
 2070.88  1994.97  1928.36  1868.62  1818.14  1771.73  1726.96  1682.20  1641.16  1601.63  
 1562.51  1520.20  1475.06  1428.70  1379.93  1325.94  1268.71  1210.25  1150.70  1091.14  
 1032.38  977.69   932.96   897.37   869.81   846.59   826.29   807.70   791.31   775.08   
 756.34   737.25   716.64   692.97   665.01   631.03   594.75   556.95   517.46   479.55   
 444.19   410.58   377.50   340.46   302.83   267.98   232.56   197.31   162.57   130.21   
 103.55   76.93    54.85    39.91    29.41    23.11    17.72    13.82    10.34    6.87     
 5.26     4.65     4.42     4.41     4.42     4.42     4.61     5.02     5.44     5.87     
 6.31     6.71     7.11     7.52     7.93     8.32     8.70     9.07     9.44     9.82     
 10.22    10.57    10.92    11.26    11.57    11.90    12.17    12.43    12.71    12.98    
 13.21    13.41    13.56    13.71    13.83    13.96    14.09    14.20    14.29    14.37    
 14.43    14.48    14.54    14.58    14.61    14.62    14.63    14.64    14.66    14.66    
 14.65    14.64    14.59    14.57    14.56    14.56    14.55    14.54    14.53    14.52    
 14.52    14.50    14.47    14.45    14.44    14.44    14.44    14.44    14.44    14.44    
 14.44    14.44    14.44    14.43    14.43    14.43    14.43    14.39    14.36    14.32    
 14.29    14.21    14.14    14.04    13.93    13.84    13.74    13.62    13.51    13.39    
 12.94    
4569.17  4500.23  4429.27  4355.45  4276.43  4195.03  4113.95  4027.23  3934.74  3837.97  
 3736.82  3636.41  3530.78  3421.10  3306.22  3189.72  3071.20  2949.50  2829.36  2705.99  
 2582.61  2459.25  2337.57  2221.96  2120.72  2037.42  1970.52  1914.70  1867.90  1826.33  
 1787.84  1752.07  1718.97  1686.04  1653.97  1621.27  1586.22  1548.19  1508.21  1466.80  
 1423.84  1377.89  1331.43  1282.49  1233.84  1188.41  1150.97  1121.94  1100.06  1084.85  
 1074.46  1066.54  1059.60  1049.79  1036.84  1022.02  1005.35  987.58   968.00   947.02   
 924.05   896.04   862.68   822.76   779.82   735.55   689.49   645.82   604.42   565.78   
 529.00   493.53   460.40   425.31   388.10   348.52   306.36   264.99   223.63   182.33   
 146.44   114.23   87.26    66.25    48.80    34.63    23.83    15.68    11.93    7.29     
 5.18     3.59     3.10     2.91     2.97     3.13     3.31     3.67     4.08     4.52     
 4.96     5.40     5.83     6.26     6.69     7.14     7.57     7.98     8.38     8.80     
 9.22     9.62     9.97     10.29    10.60    10.87    11.15    11.44    11.70    11.91    
 12.12    12.30    12.47    12.62    12.75    12.89    13.05    13.20    13.34    13.49    
 13.62    13.75    13.89    14.01    14.11    14.18    14.22    14.27    14.30    14.32    
 14.35    14.36    14.36    14.37    14.38    14.39    14.39    14.39    14.38    14.36    
 14.35    14.35    14.35    14.36    14.38    14.40    14.42    14.45    14.47    14.48    
 14.48    14.48    14.48    14.49    14.45    14.44    14.44    14.41    14.39    14.36    
 14.31    14.23    14.13    14.02    13.90    13.75    13.61    13.47    13.32    13.18    
 12.94    
4569.17  4489.82  4409.24  4326.24  4236.39  4143.12  4046.77  3945.57  3839.52  3726.19  
 3608.38  3488.93  3365.45  3235.51  3099.89  2962.22  2827.31  2691.25  2549.57  2409.03  
 2277.74  2170.21  2085.38  2017.60  1963.63  1920.62  1884.12  1855.39  1829.45  1805.13  
 1781.64  1757.75  1730.24  1700.29  1667.11  1631.50  1593.45  1553.37  1511.39  1468.47  
 1425.14  1379.80  1338.06  1303.97  1277.18  1255.67  1241.44  1232.89  1224.39  1213.87  
 1192.29  1170.62  1148.96  1119.47  1087.45  1057.61  1031.85  1008.15  985.30   961.16   
 935.23   905.69   873.75   839.20   803.16   765.29   728.44   692.85   656.32   622.98   
 590.19   558.61   525.36   487.78   447.35   407.53   365.14   318.17   272.08   228.46   
 185.98   146.03   112.95   79.92    57.01    39.97    26.34    17.16    12.27    5.77     
 2.72     1.96     1.86     1.86     1.98     2.16     2.40     2.69     3.00     3.33     
 3.71     4.12     4.54     4.99     5.47     5.96     6.48     6.98     7.47     7.91     
 8.33     8.71     9.09     9.48     9.84     10.16    10.46    10.75    11.03    11.29    
 11.55    11.80    12.03    12.22    12.39    12.55    12.71    12.87    13.01    13.14    
 13.25    13.35    13.46    13.58    13.68    13.77    13.85    13.92    13.97    14.02    
 14.04    14.06    14.06    14.07    14.13    14.16    14.18    14.19    14.20    14.20    
 14.20    14.20    14.21    14.22    14.24    14.24    14.26    14.27    14.28    14.29    
 14.32    14.34    14.33    14.33    14.33    14.32    14.32    14.31    14.31    14.29    
 14.24    14.17    14.09    13.96    13.83    13.65    13.49    13.29    13.11    12.94    
 12.94    
4569.17  4487.89  4405.74  4318.29  4223.56  4125.21  4025.99  3921.45  3808.28  3685.14  
 3561.19  3435.96  3303.80  3164.01  3023.83  2885.19  2740.54  2595.88  2451.40  2320.83  
 2209.06  2118.93  2049.56  1997.97  1957.07  1924.02  1897.30  1874.93  1855.71  1838.66  
 1819.07  1795.10  1767.63  1736.41  1702.78  1666.43  1627.01  1587.25  1544.83  1499.71  
 1453.79  1412.80  1378.29  1349.47  1325.48  1308.21  1295.61  1283.42  1268.99  1251.26  
 1229.21  1203.19  1174.56  1144.92  1118.09  1098.56  1085.14  1072.66  1055.35  1032.48  
 1006.18  975.77   945.50   911.96   876.17   838.74   799.67   759.97   718.60   675.28   
 631.58   591.91   552.89   515.01   477.47   436.32   389.66   341.23   292.87   243.53   
 194.27   152.10   111.69   80.75    58.71    42.32    29.01    19.43    13.33    6.70     
 1.65     1.42     1.46     1.54     1.70     1.95     2.23     2.50     2.78     3.10     
 3.46     3.83     4.22     4.62     5.04     5.49     5.96     6.46     6.95     7.45     
 7.90     8.34     8.77     9.17     9.57     9.90     10.22    10.53    10.84    11.12    
 11.40    11.68    11.97    12.24    12.48    12.71    12.89    13.04    13.16    13.27    
 13.39    13.48    13.56    13.63    13.70    13.78    13.86    13.92    13.99    14.03    
 14.03    14.04    14.05    14.05    14.05    14.06    14.05    14.05    14.05    14.07    
 14.07    14.05    14.02    14.00    13.99    13.99    14.00    14.01    14.03    14.04    
 14.07    14.11    14.15    14.17    14.18    14.19    14.19    14.19    14.19    14.19    
 14.20    14.15    14.08    13.96    13.83    13.66    13.49    13.31    13.11    12.94    
 12.94    
4569.17  4485.39  4398.30  4307.48  4212.92  4110.37  4006.26  3896.79  3781.51  3659.61  
 3535.99  3406.20  3276.35  3141.15  3001.79  2859.52  2719.66  2580.27  2444.99  2320.02  
 2218.58  2140.38  2080.90  2031.03  1990.72  1958.30  1931.70  1909.33  1887.75  1866.59  
 1842.14  1812.73  1779.17  1741.45  1702.88  1661.83  1618.29  1572.67  1526.75  1480.29  
 1435.88  1393.96  1360.28  1332.43  1310.80  1294.17  1281.27  1267.59  1252.67  1235.67  
 1213.06  1190.42  1164.63  1137.62  1110.46  1083.62  1057.97  1031.18  1003.72  972.44   
 939.80   905.73   870.02   831.85   793.13   752.64   713.77   674.95   637.65   600.93   
 565.28   527.15   488.76   447.38   405.45   363.38   321.17   274.05   230.87   188.96   
 150.65   121.19   91.80    62.41    44.60    30.81    20.05    13.86    8.34     3.61     
 2.70     2.47     2.47     2.59     2.76     2.96     3.20     3.47     3.76     4.09     
 4.48     4.90     5.33     5.76     6.25     6.75     7.24     7.73     8.19     8.65     
 9.10     9.52     9.91     10.30    10.65    10.96    11.27    11.56    11.85    12.10    
 12.40    12.69    12.96    13.19    13.39    13.59    13.76    13.90    14.00    14.09    
 14.16    14.24    14.30    14.34    14.41    14.45    14.48    14.51    14.54    14.56    
 14.60    14.62    14.62    14.62    14.60    14.59    14.59    14.59    14.57    14.57    
 14.55    14.54    14.53    14.52    14.49    14.46    14.44    14.43    14.43    14.43    
 14.44    14.44    14.46    14.45    14.44    14.43    14.43    14.42    14.40    14.36    
 14.29    14.21    14.09    13.93    13.72    13.50    13.28    13.06    12.85    12.67    
 12.94    
4569.17  4491.28  4411.27  4328.70  4240.24  4145.95  4050.79  3953.06  3849.35  3742.38  
 3630.81  3516.31  3400.50  3279.65  3155.06  3030.46  2905.02  2778.48  2651.94  2525.49  
 2408.45  2306.16  2219.99  2148.67  2090.46  2041.73  1999.96  1963.08  1930.07  1899.39  
 1868.96  1836.93  1800.94  1760.55  1718.33  1673.53  1626.25  1577.63  1529.53  1480.13  
 1430.60  1380.73  1333.48  1287.82  1248.21  1216.79  1192.41  1172.51  1155.61  1138.85  
 1123.10  1108.40  1092.57  1075.34  1057.43  1038.90  1020.38  999.55   975.77   949.32   
 920.13   886.55   849.20   807.80   764.31   719.64   675.46   631.64   588.11   546.35   
 506.73   466.48   428.79   388.86   348.22   304.75   261.57   218.46   181.84   147.19   
 116.13   89.67    68.61    51.12    36.79    25.87    17.80    13.14    9.02     6.75     
 5.01     4.61     4.33     4.09     3.89     3.93     4.26     4.67     5.11     5.56     
 6.01     6.47     6.93     7.39     7.83     8.27     8.70     9.14     9.59     10.04    
 10.49    10.96    11.36    11.72    12.11    12.42    12.74    13.10    13.42    13.67    
 13.95    14.23    14.44    14.58    14.72    14.87    14.99    15.10    15.15    15.18    
 15.25    15.32    15.37    15.38    15.38    15.38    15.38    15.39    15.39    15.39    
 15.39    15.39    15.37    15.34    15.32    15.30    15.28    15.27    15.24    15.22    
 15.21    15.20    15.19    15.18    15.15    15.12    15.11    15.11    15.11    15.13    
 15.14    15.14    15.14    15.13    15.10    15.08    15.05    15.02    14.99    14.94    
 14.88    14.77    14.64    14.48    14.30    14.09    13.88    13.65    13.42    13.22    
 12.94    
4569.17  4504.30  4437.72  4371.13  4299.91  4225.48  4148.73  4074.06  3993.53  3909.58  
 3822.24  3734.44  3646.22  3554.21  3457.12  3358.31  3259.33  3162.60  3062.12  2958.23  
 2855.16  2756.71  2657.05  2557.37  2456.86  2365.17  2281.13  2207.04  2140.37  2080.08  
 2028.67  1981.14  1936.15  1893.30  1850.46  1808.88  1765.21  1719.42  1672.05  1622.45  
 1571.99  1519.83  1466.82  1413.80  1359.52  1301.87  1243.05  1184.23  1125.40  1075.15  
 1032.02  996.51   965.91   939.12   913.31   889.50   868.20   848.41   828.82   808.82   
 786.92   764.65   741.24   715.77   686.90   654.37   618.78   580.63   539.64   498.32   
 459.30   421.85   384.77   346.65   310.11   274.93   239.23   201.84   167.52   135.35   
 108.54   81.76    59.50    42.42    30.73    23.24    18.03    13.85    10.04    7.82     
 5.86     4.85     4.77     4.84     4.86     4.84     5.22     5.68     6.12     6.58     
 7.02     7.48     7.92     8.38     8.83     9.26     9.66     10.04    10.47    10.89    
 11.31    11.70    12.04    12.42    12.80    13.12    13.45    13.79    14.10    14.36    
 14.64    14.91    15.14    15.32    15.44    15.56    15.67    15.77    15.82    15.87    
 15.94    16.00    16.01    16.01    16.01    15.99    15.97    15.98    15.98    15.95    
 15.92    15.90    15.88    15.87    15.85    15.82    15.77    15.73    15.68    15.64    
 15.60    15.56    15.53    15.50    15.45    15.42    15.39    15.38    15.35    15.35    
 15.35    15.35    15.35    15.34    15.33    15.33    15.32    15.32    15.31    15.29    
 15.23    15.13    15.01    14.84    14.66    14.47    14.26    14.05    13.84    13.66    
 12.94    
4569.17  4525.36  4479.44  4432.65  4383.76  4334.89  4286.82  4236.20  4183.20  4129.20  
 4074.36  4019.52  3964.23  3906.81  3846.86  3786.49  3725.27  3663.61  3600.68  3536.66  
 3472.03  3406.59  3343.22  3277.35  3213.57  3148.12  3083.92  3019.29  2953.84  2889.23  
 2825.16  2756.39  2687.62  2619.16  2552.14  2483.15  2413.07  2342.16  2273.84  2206.62  
 2140.87  2076.62  2013.65  1951.11  1891.19  1835.19  1780.55  1722.66  1661.11  1596.45  
 1529.37  1455.80  1377.23  1292.77  1201.84  1111.48  1024.66  942.05   867.69   803.06   
 753.25   714.32   680.36   646.78   614.06   581.47   549.43   516.66   483.78   450.04   
 415.51   379.24   344.23   309.52   273.99   238.46   202.98   172.20   145.24   120.71   
 98.03    78.10    62.68    49.82    39.21    31.37    25.74    21.23    16.52    12.71    
 9.22     6.37     5.07     4.93     4.75     4.47     4.68     5.12     5.58     6.04     
 6.54     7.02     7.49     7.96     8.42     8.86     9.29     9.74     10.19    10.65    
 11.06    11.47    11.84    12.17    12.55    12.88    13.15    13.42    13.70    13.88    
 14.05    14.23    14.40    14.52    14.64    14.80    14.97    15.10    15.24    15.38    
 15.47    15.51    15.51    15.51    15.56    15.55    15.53    15.53    15.52    15.49    
 15.43    15.40    15.35    15.30    15.26    15.25    15.24    15.21    15.15    15.09    
 15.04    14.97    14.91    14.87    14.83    14.81    14.81    14.80    14.80    14.80    
 14.79    14.80    14.80    14.80    14.80    14.80    14.81    14.79    14.77    14.76    
 14.71    14.66    14.58    14.45    14.31    14.14    13.96    13.80    13.63    13.51    
 12.94    
4569.17  4545.68  4523.02  4500.37  4477.29  4453.85  4430.77  4407.27  4382.92  4358.55  
 4333.77  4309.40  4285.04  4260.26  4235.89  4211.11  4186.81  4162.45  4138.51  4112.88  
 4088.09  4065.42  4042.76  4019.26  3996.18  3974.80  3953.43  3933.81  3914.15  3894.91  
 3873.99  3852.62  3827.02  3799.25  3768.51  3735.62  3704.40  3676.60  3649.74  3623.23  
 3599.28  3572.80  3547.57  3523.63  3497.58  3467.69  3434.81  3402.75  3368.57  3333.11  
 3295.61  3254.19  3205.12  3155.97  3116.14  3071.30  3012.44  2952.62  2891.09  2821.48  
 2750.55  2667.10  2550.75  2436.19  2315.29  2188.41  2041.57  1868.70  1674.84  1476.56  
 1275.71  1073.93  872.15   677.89   511.92   378.22   283.03   216.88   166.63   130.80   
 108.40   86.10    67.74    53.58    43.52    36.28    29.10    22.61    17.51    13.25    
 10.07    7.52     5.80     4.52     3.81     3.44     3.83     4.27     4.73     5.18     
 5.68     6.16     6.70     7.26     7.78     8.27     8.86     9.14     9.61     10.10    
 10.50    10.90    11.25    11.62    11.94    12.20    12.46    12.68    12.84    13.07    
 13.28    13.42    13.54    13.66    13.78    13.89    13.97    14.04    14.11    14.19    
 14.27    14.31    14.34    14.36    14.38    14.38    14.34    14.30    14.30    14.30    
 14.29    14.25    14.22    14.19    14.14    14.12    14.10    14.07    14.04    14.03    
 14.01    13.98    13.96    13.96    13.96    13.96    13.95    13.95    13.96    13.96    
 14.01    14.06    14.11    14.16    14.19    14.23    14.26    14.29    14.32    14.34    
 14.34    14.34    14.32    14.22    14.12    14.01    13.89    13.76    13.63    13.55    
 12.94    
4569.17  4570.37  4571.58  4571.59  4570.79  4569.99  4568.39  4567.18  4566.38  4566.76  
 4567.96  4569.56  4570.37  4571.58  4573.97  4575.99  4577.20  4578.40  4579.61  4580.02  
 4580.42  4582.01  4584.42  4586.83  4589.63  4592.05  4594.86  4598.06  4602.07  4606.88  
 4611.70  4616.12  4619.35  4618.59  4614.21  4605.03  4590.62  4574.96  4562.11  4556.00  
 4557.91  4564.28  4571.50  4577.94  4586.75  4597.98  4610.02  4622.47  4627.77  4623.45  
 4620.63  4626.55  4632.18  4638.20  4648.99  4638.39  4614.43  4606.22  4610.50  4615.72  
 4612.99  4557.43  4454.77  4360.24  4277.73  4158.83  3971.60  3744.63  3500.54  3216.91  
 2882.76  2549.66  2192.50  1810.71  1406.00  1113.88  823.14   532.40   357.26   238.63   
 175.51   127.82   99.28    70.95    56.28    47.04    39.16    30.88    23.18    17.01    
 12.09    9.15     8.20     6.38     3.96     2.71     2.88     3.21     3.57     3.93     
 4.31     4.68     5.09     5.56     5.94     6.32     6.68     7.05     7.40     7.72     
 8.04     8.35     8.65     8.92     9.19     9.45     9.69     9.93     10.15    10.38    
 10.58    10.79    11.00    11.20    11.39    11.55    11.72    11.85    11.95    12.06    
 12.17    12.25    12.35    12.48    12.57    12.64    12.67    12.70    12.72    12.71    
 12.65    12.60    12.56    12.46    12.38    12.34    12.31    12.30    12.27    12.27    
 12.26    12.36    12.75    12.99    12.99    12.95    12.90    12.86    12.85    12.86    
 12.89    12.92    12.95    12.97    12.99    13.01    13.02    13.04    13.06    13.10    
 13.14    13.19    13.21    13.22    13.23    13.23    13.23    13.22    13.21    13.21    
 12.94    
4569.17  4590.48  4611.38  4631.08  4649.99  4669.68  4687.77  4705.06  4722.31  4739.61  
 4758.51  4777.41  4795.91  4814.81  4833.31  4851.39  4867.87  4883.56  4899.64  4915.68  
 4930.55  4944.63  4959.11  4973.58  4987.25  5000.52  5014.19  5027.04  5037.48  5047.13  
 5056.35  5065.19  5072.82  5079.22  5080.39  5077.95  5072.37  5072.02  5077.68  5086.12  
 5094.16  5102.19  5111.86  5123.53  5136.42  5152.16  5174.71  5199.64  5224.59  5251.14  
 5278.46  5303.35  5323.41  5339.09  5360.49  5392.17  5413.01  5424.32  5442.47  5466.19  
 5488.69  5508.46  5492.21  5418.24  5347.35  5289.21  5199.89  5054.61  4847.71  4568.62  
 4196.89  3719.46  3190.84  2642.31  2094.11  1580.50  1121.32  763.16   516.46   393.37   
 270.27   147.89   105.45   78.23    60.35    49.15    40.66    32.39    25.29    19.10    
 13.17    8.46     6.81     5.40     3.84     2.57     1.85     1.99     2.20     2.43     
 2.67     2.91     3.17     3.44     3.71     3.98     4.24     4.51     4.77     5.04     
 5.30     5.54     5.77     6.01     6.24     6.46     6.68     6.89     7.09     7.28     
 7.47     7.64     7.82     7.98     8.14     8.28     8.41     8.53     8.64     8.74     
 8.83     8.90     8.97     9.04     9.09     9.14     9.18     9.21     9.25     9.29     
 9.32     9.36     9.39     9.43     9.48     9.52     9.57     9.63     9.67     9.74     
 9.80     9.95     10.32    10.85    10.89    10.94    10.99    11.05    11.12    11.20    
 11.28    11.35    11.43    11.50    11.57    11.65    11.74    11.84    11.94    12.03    
 12.12    12.21    12.30    12.35    12.41    12.45    12.47    12.52    12.56    12.62    
 12.94    
4569.17  4609.79  4649.22  4685.45  4720.84  4754.55  4789.13  4822.13  4854.71  4886.49  
 4917.07  4946.04  4976.19  5005.16  5031.73  5058.67  5082.77  5104.51  5125.44  5143.97  
 5162.07  5178.58  5193.87  5207.96  5221.24  5234.12  5246.99  5258.23  5267.91  5275.57  
 5282.42  5287.67  5292.50  5298.12  5304.54  5306.21  5305.03  5299.84  5293.83  5292.57  
 5295.73  5296.96  5298.79  5300.63  5302.46  5304.29  5306.12  5318.95  5335.41  5353.88  
 5373.53  5394.82  5413.75  5427.89  5441.17  5447.28  5443.77  5439.76  5456.02  5477.69  
 5495.82  5518.24  5556.25  5598.03  5623.56  5586.11  5499.01  5417.70  5346.40  5244.58  
 5071.60  4793.59  4464.42  3972.22  3350.45  2664.30  1983.35  1387.13  1034.17  684.02   
 333.86   195.19   118.61   88.94    59.76    45.28    34.28    25.30    19.75    14.13    
 9.40     5.88     4.27     3.78     2.92     2.18     1.52     1.23     1.29     1.40     
 1.52     1.65     1.80     1.94     2.10     2.26     2.42     2.59     2.77     2.95     
 3.13     3.32     3.49     3.67     3.86     4.04     4.22     4.40     4.57     4.74     
 4.92     5.09     5.26     5.42     5.59     5.76     5.95     6.12     6.29     6.45     
 6.60     6.75     6.89     7.04     7.17     7.31     7.45     7.57     7.69     7.83     
 7.95     8.06     8.15     8.27     8.36     8.45     8.54     8.64     8.73     8.83     
 8.96     9.12     9.40     9.84     9.97     10.09    10.22    10.35    10.49    10.63    
 10.77    10.91    11.06    11.20    11.34    11.47    11.61    11.76    11.89    12.04    
 12.20    12.34    12.46    12.58    12.69    12.79    12.89    12.99    13.09    13.19    
 12.94    
4569.17  4625.99  4679.21  4731.19  4779.59  4828.75  4874.71  4919.04  4961.66  5002.77  
 5041.05  5076.53  5111.19  5143.84  5175.27  5204.27  5230.06  5253.84  5275.99  5296.07  
 5312.18  5325.88  5338.37  5348.84  5358.11  5366.97  5374.20  5379.03  5382.23  5382.62  
 5381.80  5379.37  5375.76  5373.76  5374.59  5378.23  5383.07  5387.49  5389.88  5389.85  
 5386.21  5381.78  5376.52  5368.47  5362.03  5357.20  5354.39  5352.80  5354.05  5359.36  
 5371.51  5389.31  5413.53  5440.04  5462.56  5477.46  5489.57  5504.13  5523.06  5539.56  
 5552.87  5566.50  5571.69  5571.60  5561.25  5510.94  5420.47  5311.41  5179.13  4996.06  
 4766.34  4504.93  4230.56  3936.67  3566.16  3160.28  2681.98  2203.27  1673.65  1189.13  
 724.81   525.24   325.68   127.44   71.93    48.10    33.77    25.31    18.79    13.50    
 9.10     6.92     4.51     2.80     2.14     1.79     1.45     1.17     1.15     1.21     
 1.26     1.34     1.40     1.47     1.54     1.62     1.70     1.79     1.89     1.98     
 2.07     2.17     2.28     2.39     2.50     2.62     2.74     2.87     3.00     3.15     
 3.35     3.55     3.73     3.88     4.02     4.16     4.29     4.43     4.57     4.69     
 4.82     4.96     5.10     5.24     5.39     5.52     5.67     5.80     5.93     6.05     
 6.18     6.32     6.45     6.59     6.74     6.89     7.04     7.18     7.31     7.44     
 7.59     7.76     7.97     8.38     8.53     8.70     8.86     9.02     9.20     9.38     
 9.56     9.76     9.95     10.16    10.36    10.56    10.77    10.99    11.19    11.39    
 11.58    11.77    11.96    12.13    12.31    12.47    12.63    12.79    12.95    13.11    
 12.94    
4569.17  4637.29  4703.41  4763.52  4822.77  4879.07  4933.10  4983.92  5031.91  5077.88  
 5120.64  5159.77  5194.88  5227.55  5259.40  5286.85  5311.00  5331.60  5348.97  5364.70  
 5378.43  5390.14  5398.64  5404.71  5407.97  5407.60  5406.80  5404.80  5401.99  5401.16  
 5404.34  5408.76  5412.79  5415.23  5415.65  5413.66  5412.05  5410.04  5408.82  5409.60  
 5410.41  5412.81  5416.42  5422.04  5430.07  5440.12  5452.19  5467.47  5485.58  5508.10  
 5536.98  5567.19  5599.80  5636.43  5676.69  5718.58  5755.72  5790.40  5816.29  5828.93  
 5819.88  5782.79  5716.65  5605.97  5442.98  5220.81  4946.55  4616.31  4249.17  3846.53  
 3396.06  2892.04  2375.70  1856.25  1396.46  1105.94  817.50   529.06   390.43   295.84   
 229.71   174.18   133.59   103.54   80.20    56.95    40.04    27.14    18.99    13.37    
 8.23     6.04     4.20     3.18     1.94     1.46     1.34     1.26     1.26     1.32     
 1.39     1.45     1.52     1.59     1.67     1.74     1.82     1.89     1.97     2.06     
 2.14     2.26     2.47     2.59     2.69     2.77     2.85     2.92     3.00     3.07     
 3.15     3.24     3.32     3.40     3.48     3.56     3.65     3.73     3.83     3.92     
 4.01     4.10     4.20     4.31     4.42     4.54     4.65     4.76     4.88     4.99     
 5.12     5.24     5.38     5.51     5.66     5.82     5.98     6.14     6.32     6.49     
 6.68     6.90     7.17     7.50     7.69     7.87     8.06     8.26     8.47     8.67     
 8.88     9.10     9.31     9.52     9.74     9.95     10.16    10.36    10.58    10.80    
 11.03    11.26    11.48    11.69    11.90    12.10    12.30    12.49    12.68    12.87    
 12.94    
4569.17  4646.09  4719.73  4786.95  4853.34  4916.88  4975.97  5031.83  5085.52  5135.70  
 5181.01  5220.69  5258.72  5293.11  5323.86  5351.76  5374.80  5393.42  5410.39  5424.09  
 5433.78  5439.02  5441.82  5439.79  5436.94  5432.49  5428.87  5427.28  5429.76  5436.64  
 5443.10  5449.16  5453.18  5453.58  5454.39  5454.79  5453.99  5454.40  5456.05  5460.52  
 5467.01  5474.71  5486.08  5501.51  5521.79  5546.52  5574.11  5607.76  5645.84  5685.13  
 5726.04  5767.74  5807.38  5842.89  5874.02  5898.24  5912.31  5913.76  5895.31  5850.87  
 5772.79  5658.55  5496.76  5271.29  4974.31  4603.54  4149.99  3594.83  2947.07  2299.30  
 1652.55  1120.58  798.45   614.45   497.84   418.46   359.36   308.73   268.34   227.94   
 187.61   154.20   125.23   99.14    77.17    58.07    42.81    30.23    20.60    13.65    
 6.97     3.74     2.93     2.46     2.20     1.89     1.55     1.40     1.40     1.42     
 1.48     1.56     1.64     1.73     1.81     1.93     2.08     2.20     2.31     2.41     
 2.50     2.58     2.66     2.73     2.80     2.87     2.94     3.01     3.08     3.14     
 3.22     3.29     3.36     3.43     3.49     3.56     3.63     3.70     3.77     3.84     
 3.92     4.00     4.07     4.15     4.23     4.32     4.41     4.50     4.60     4.71     
 4.81     4.93     5.05     5.18     5.31     5.46     5.61     5.77     5.93     6.10     
 6.28     6.47     6.67     7.06     7.25     7.44     7.64     7.84     8.08     8.30     
 8.52     8.76     8.98     9.21     9.43     9.63     9.86     10.07    10.30    10.53    
 10.75    10.97    11.19    11.41    11.62    11.82    12.01    12.19    12.39    12.57    
 12.94    
4569.17  4650.04  4727.69  4798.07  4866.76  4932.44  4993.85  5052.81  5109.72  5161.79  
 5208.99  5251.31  5290.35  5326.55  5358.70  5386.78  5410.33  5429.88  5445.37  5456.80  
 5464.97  5468.68  5468.32  5464.70  5459.83  5454.96  5452.49  5453.27  5456.49  5460.54  
 5463.00  5462.63  5460.21  5456.97  5451.71  5446.83  5442.36  5440.70  5442.29  5449.13  
 5460.05  5474.24  5492.07  5514.37  5539.93  5571.56  5609.69  5649.49  5690.93  5735.19  
 5784.58  5831.34  5876.47  5913.15  5942.49  5962.51  5963.14  5937.42  5884.48  5799.89  
 5685.60  5530.80  5318.99  5015.35  4626.28  4147.02  3577.54  2894.51  2171.22  1513.00  
 1198.48  887.63   576.79   490.78   438.68   391.46   341.58   290.66   248.56   210.28   
 175.42   144.53   119.50   94.53    69.56    53.38    40.47    29.35    20.50    13.34    
 5.64     1.98     1.73     1.65     1.63     1.62     1.71     1.81     1.86     1.91     
 1.98     2.05     2.13     2.20     2.26     2.32     2.39     2.46     2.54     2.61     
 2.69     2.77     2.84     2.92     2.99     3.06     3.14     3.20     3.27     3.34     
 3.41     3.47     3.53     3.60     3.67     3.73     3.79     3.86     3.92     3.99     
 4.06     4.13     4.20     4.27     4.35     4.42     4.51     4.59     4.68     4.78     
 4.87     4.98     5.09     5.21     5.35     5.48     5.62     5.78     5.92     6.09     
 6.26     6.43     6.65     7.04     7.24     7.43     7.64     7.86     8.08     8.32     
 8.56     8.80     9.04     9.27     9.51     9.74     9.97     10.20    10.43    10.67    
 10.91    11.13    11.35    11.55    11.72    11.89    12.07    12.23    12.42    12.60    
 12.94    
